Semiconductor Band Gap Date: 2024-03-05,2:49 PM
Temperature,Resistance
311.516,56.256
311.562,54.941
311.610,54.436
311.646,55.043
311.684,53.830
311.724,53.931
311.766,54.740
311.803,55.246
311.835,53.932
311.874,55.348
311.900,53.325
311.955,52.516
311.999,54.236
312.047,53.630
312.107,57.372
312.167,55.147
312.242,56.362
312.327,59.801
312.420,58.386
312.526,58.690
312.639,59.802
312.763,60.915
312.906,61.319
313.056,62.129
313.220,64.050
313.409,65.466
313.601,62.230
313.811,64.556
314.024,65.568
314.252,66.781
314.489,67.490
314.736,66.681
314.982,68.705
315.249,69.010
315.526,67.594
315.806,69.213
316.106,68.709
316.414,69.216
316.728,68.812
317.051,70.229
317.373,70.836
317.712,71.141
318.054,70.232
318.403,72.055
318.765,71.552
319.147,71.653
319.526,70.947
319.909,74.689
320.307,73.881
320.733,71.153
321.125,71.458
321.550,72.875
321.983,71.967
322.428,75.104
322.886,73.992
323.328,74.905
323.799,73.389
324.279,73.086
324.737,74.300
325.219,74.708
325.696,74.405
326.179,76.429
326.669,72.486
327.160,73.399
327.657,74.412
328.154,76.334
328.669,75.022
329.171,72.092
329.698,71.488
330.226,71.994
330.747,72.500
331.290,70.073
331.820,73.410
332.372,69.974
332.913,72.098
333.471,70.076
334.016,69.874
334.573,70.380
335.136,70.784
335.693,70.483
336.268,69.674
336.842,68.866
337.420,68.866
337.997,69.372
338.592,68.767
339.176,69.576
339.778,69.071
340.388,67.858
340.987,67.049
341.587,67.151
342.192,66.747
342.802,63.716
343.411,66.748
344.026,64.425
344.635,63.515
345.255,65.334
345.878,63.920
346.503,63.920
347.129,63.111
347.764,60.989
348.386,60.382
349.031,61.091
349.672,60.182
350.299,61.699
350.947,58.971
351.584,57.961
352.232,60.590
352.877,57.861
353.534,56.649
354.178,56.043
354.848,55.639
355.495,55.236
356.163,56.146
356.817,55.945
357.474,55.136
358.131,54.329
358.788,53.318
359.460,52.712
360.124,49.985
360.805,50.289
361.483,47.662
362.160,45.540
362.835,45.743
363.526,45.541
364.195,42.914
364.890,41.603
365.573,45.747
366.255,40.391
366.935,40.090
367.615,39.282
368.294,38.069
368.974,42.517
369.650,39.892
370.328,41.104
371.014,38.579
371.691,36.052
372.373,33.525
373.050,36.052
373.729,34.031
374.413,35.547
375.090,33.830
375.770,31.607
376.451,29.587
377.126,28.273
377.810,26.352
378.480,24.028
379.168,23.623
379.849,21.500
380.527,21.198
381.211,22.717
381.878,19.786
382.567,18.169
383.253,19.686
383.930,18.676
384.621,14.432
385.300,16.050
385.991,15.645
386.670,11.804
387.346,12.107
388.034,10.591
388.707,11.298
389.381,7.155
390.063,6.649
390.738,5.134
391.421,2.608
392.092,1.799
392.754,0.082
393.434,2.002
394.093,-1.125
394.768,-2.439
395.428,-3.853
396.099,-4.056
396.766,-7.490
397.421,-7.894
398.093,-6.470
398.737,-11.018
399.404,-8.390
400.062,-7.783
400.730,-14.958
401.381,-13.038
402.041,-16.368
402.706,-16.266
403.357,-18.286
403.969,-20.712
404.676,-23.137
405.337,-25.763
406.000,-24.753
406.653,-26.859
407.307,-28.980
407.946,-30.091
408.631,-30.696
409.299,-34.232
409.959,-33.816
410.615,-33.007
411.271,-36.139
411.934,-39.168
412.593,-41.189
413.259,-39.369
413.912,-42.198
414.555,-41.378
415.218,-53.300
415.888,-42.279
416.534,-46.213
417.190,-52.872
417.838,-51.154
418.501,-45.800
419.156,-54.486
419.809,-51.554
420.469,-55.585
421.115,-59.310
421.782,-57.794
422.432,-58.200
423.087,-70.306
423.729,-66.669
424.393,-61.620
425.031,-66.973
425.692,-68.286
426.336,-62.125
426.976,-68.187
427.617,-71.722
428.261,-73.135
428.902,-76.870
429.557,-73.739
430.191,-74.237
430.841,-76.764
431.474,-77.057
432.119,-69.477
432.757,-77.252
433.397,-82.182
434.011,-75.818
434.668,-88.943
435.300,-77.829
435.936,-85.197
436.567,-79.033
437.209,-86.900
437.846,-84.173
438.473,-86.390
439.119,-87.297
439.748,-81.941
440.394,-83.153
441.027,-83.956
441.653,-83.541
442.294,-93.237
442.927,-90.811
443.567,-87.176
444.191,-93.843
444.816,-81.728
445.457,-96.976
446.082,-86.674
446.721,-88.489
447.344,-88.381
447.981,-87.368
448.610,-88.074
449.235,-90.678
449.869,-84.013
450.478,-78.460
451.112,-87.040
451.729,-84.314
452.368,-81.586
452.982,-84.595
453.618,-78.233
454.249,-80.146
454.871,-92.058
455.500,-83.060
456.131,-78.815
456.760,-75.675
457.379,-68.402
457.995,-71.314
458.625,-71.205
459.239,-65.654
459.874,-64.942
460.482,-69.073
461.108,-52.076
461.715,-49.139
462.348,123.850
462.964,-50.023
463.568,-48.809
464.195,-64.249
464.814,-41.942
465.418,-56.365
466.042,-59.173
466.641,-32.632
467.263,-52.795
467.872,-28.482
468.481,-18.589
469.094,-64.967
469.698,-46.477
470.310,-38.711
470.921,-40.613
471.530,-38.277
472.138,-8.228
472.737,6.335
473.342,-26.037
473.938,-1.298
474.548,4.764
475.144,-9.849
475.734,-7.191
476.365,42.807
476.977,-10.759
477.560,22.917
478.149,13.843
478.757,24.743
479.352,-19.984
479.956,-6.747
480.539,96.926
481.144,47.879
481.733,14.374
482.324,-23.520
482.926,0.810
483.515,74.541
484.103,88107800.000
484.706,-84136.240
485.291,-655852.700
485.888,-525556.300
486.482,-81353.840
487.069,-1059278.000
487.662,-53348.310
488.259,-1308196.000
488.850,-24061.700
489.443,-12487.210
490.036,19386.410
490.629,-706628.500
491.222,-1095029.000
491.819,85154.390
492.408,-14166.870
493.002,-950.327
493.594,29418.090
494.183,-14259.390
494.772,-581590.200
495.360,6841.219
495.941,1736838.000
496.529,-14587.440
497.097,783260.200
497.678,-1438081.000
498.264,6322904.000
498.850,86541.790
499.425,33221.380
499.996,-1243453.000
500.573,-1119627.000
501.151,-606118.400
501.722,-1354246.000
502.296,-611540.000
502.877,133803.400
503.448,186663600.000
504.028,-620571.400
504.607,51418.180
505.178,-561502.100
505.750,-577327.800
506.329,-564250.700
506.904,1693977.000
507.502,-25738.150
508.072,-76725.460
508.597,-8271.215
509.208,-1231153.000
509.812,-578348.100
510.411,-59848.780
511.011,-801852.700
511.641,1174391.000
512.344,-638922.200
512.822,34614.670
513.387,1284953.000
513.961,-423814.200
514.535,-143646.200
515.127,-108422.900
515.715,131464.900
516.294,-15563.350
516.869,939127.100
517.438,-1088456.000
518.001,-1743333.000
518.571,3360680.000
519.138,615750.800
519.695,-580238.100
520.253,1587563.000
520.806,-13189.880
521.372,-1175816.000
521.921,-35212.290
522.463,-153647.500
523.024,-561922.700
523.563,240667.400
524.115,-9489.133
524.657,-606699.800
525.199,1644703.000
525.741,-19713.410
526.279,1016600.000
526.824,38240.650
527.361,-1222897.000
527.889,2241549.000
528.427,-130640.700
528.953,-1151902.000
529.487,-1150497.000
530.031,34484.210
530.561,-586073.600
531.102,-562397.700
531.623,2892116.000
532.152,-470588.500
532.692,10380.220
533.213,83547.860
533.751,121045.500
534.272,1269307.000
534.794,-32406.520
535.319,21928.530
535.843,-643601.700
536.368,-449826.200
536.871,-564761.800
537.404,51355.550
537.917,-629412.300
538.437,-60989.730
538.950,-43890.510
539.476,-2049516.000
539.978,-4458455.000
540.489,5614918.000
540.998,-30825.480
541.502,-62068.160
542.002,102205.100
542.511,1139493.000
543.010,-6971.928
543.516,-5767435.000
544.005,-1029313.000
544.491,-1308725.000
545.002,60221.370
545.497,-3714476000.000
545.999,142114.300
546.509,-1173064.000
547.014,6169.443
547.514,-75347.210
548.011,-96041.530
548.501,-84085780.000
548.984,-32058.030
549.469,1643952.000
549.950,18544.430
550.447,6227.370
550.943,2615478.000
551.432,-571276.800
551.926,91986.690
552.415,-570669.900
552.899,39664090.000
553.396,-64375.320
553.879,-562320.500
554.361,-53018.040
554.843,917176.300
555.342,-37587.080
555.827,-1141530.000
556.305,-141822.700
556.787,-423061.200
557.278,-647273.400
557.759,-84436.100
558.239,-67935.790
558.723,-52936.580
559.197,570774.100
559.672,-856760.200
560.141,32909.460
560.623,982363.500
561.103,-1415752.000
561.562,-1171398.000
562.042,718226.700
562.515,96562.950
562.986,-31683.010
563.465,-833861.700
563.943,-27378.540
564.415,1357427.000
564.887,584436.800
565.357,-540758.000
565.825,-63201.040
566.294,-569040.800
566.769,-799639.900
567.219,-394732.700
567.698,-14223940.000
568.158,-111627200.000
568.622,-33835.190
569.080,2061896.000
569.543,-445238.100
570.000,-371338.700
570.452,-4494.561
570.907,-626418.200
571.365,-841702.600
571.811,-752548.700
572.270,5011994.000
